onset	duration	trial_number	trial_type	reaction_time	response_coded	response_str	pairno_rec	enc_codes_during_rec	onset_noTriggerAdjust
0.0786413034779798	3	1	CORRECTLY	2.15178359452193	5	SURE_CORRECT	3	6	0.0786413034779798
4.52181626888751	3	2	INCORRECTLY	2.59509985011255	10	MAYBE_INCORRECT	55	0	4.52181626888751
13.0103770124219	2	3	CONTROL	0.911829205578215	5	n/a	1000	0	13.0103770124219
16.0610866857387	3	4	CORRECTLY	2.06814320826152	21	SURE_INCORRECT	12	0	16.0610866857387
21.0181537384219	3	5	CORRECTLY	1.35040584857825	5	SURE_CORRECT	8	15	21.0181537384219
25.0635314044098	2	6	CONTROL	1.57468929459037	28	n/a	1000	0	25.0635314044098
29.0259192614217	3	7	INCORRECTLY	2.23609658757823	21	SURE_INCORRECT	59	0	29.0259192614217
36.0222799449557	3	8	CORRECTLY	1.75325583804442	5	SURE_CORRECT	7	13	36.0222799449557
40.5153170458875	3	9	INCORRECTLY	1.63682022611238	21	SURE_INCORRECT	68	0	40.5153170458875
47.0142926699559	3	10	INCORRECTLY	2.23460718104434	21	SURE_INCORRECT	64	0	47.0142926699559
51.0597239705462	3	11	CORRECTLY	3.07785833445405	21	SURE_INCORRECT	6	12	51.0597239705462
56.0168024969557	2	12	CONTROL	0.968313017044238	5	n/a	1000	0	56.0168024969557
61.5211535254216	3	13	INCORRECTLY	2.36188614857838	21	SURE_INCORRECT	78	0	61.5211535254216
65.5664999408878	3	14	CORRECTLY	2.89066151411225	10	MAYBE_INCORRECT	16	31	65.5664999408878
69.5620497404216	3	15	CORRECTLY	1.60234065557825	5	SURE_CORRECT	14	0	69.5620497404216
75.0166036168876	3	16	CORRECTLY	0.995901821112511	5	SURE_CORRECT	1	3	75.0166036168876
79.078522200422	3	17	CORRECTLY	1.20439576457829	5	SURE_CORRECT	5	11	79.078522200422
83.5051960148194	3	18	INCORRECTLY	1.23648983218072	21	SURE_INCORRECT	51	0	83.5051960148194
90.0208261414218	3	19	INCORRECTLY	1.69490852657827	21	SURE_INCORRECT	47	0	90.0208261414218
94.0661587338877	3	20	INCORRECTLY	1.48164427711208	21	SURE_INCORRECT	66	0	94.0661587338877
99.0232976278876	3	21	CORRECTLY	0.980468046112492	5	SURE_CORRECT	10	20	99.0232976278876
103.068654119422	3	22	INCORRECTLY	1.43829315057837	21	SURE_INCORRECT	48	0	103.068654119422
107.064203635888	3	23	INCORRECTLY	1.33289552211227	21	SURE_INCORRECT	52	0	107.064203635888
115.022209902887	3	24	INCORRECTLY	2.15050232211252	21	SURE_INCORRECT	45	0	115.022209902887
119.515197591887	3	25	CORRECTLY	1.13105037711239	5	SURE_CORRECT	9	18	119.515197591887
125.516800049422	3	26	INCORRECTLY	1.41327742857811	21	SURE_INCORRECT	42	0	125.516800049422
131.021144518546	3	27	INCORRECTLY	1.6221197844543	21	SURE_INCORRECT	80	0	131.021144518546
137.006236038956	3	28	CORRECTLY	1.09868160004453	5	SURE_CORRECT	2	5	137.006236038956
142.013111982887	2	29	CONTROL	1.19980178311243	10	n/a	1000	0	142.013111982887
145.063738995887	3	30	INCORRECTLY	2.04228201811247	21	SURE_INCORRECT	56	0	145.063738995887
150.518313177888	3	31	INCORRECTLY	1.48133159111239	21	SURE_INCORRECT	43	0	150.518313177888
155.011220101422	3	32	INCORRECTLY	1.5309929235782	21	SURE_INCORRECT	58	0	155.011220101422
159.520835598888	3	33	CORRECTLY	1.17874274111273	5	SURE_CORRECT	4	9	159.520835598888
167.014551267888	3	34	CORRECTLY	0.888452057112318	5	SURE_CORRECT	13	0	167.014551267888
173.513595907422	3	35	CORRECTLY	2.12425798957838	21	SURE_INCORRECT	11	21	173.513595907422
178.520595172888	3	36	CORRECTLY	2.58458207811236	28	MAYBE_CORRECT	15	30	178.520595172888
182.565833107956	3	37	INCORRECTLY	1.73937483604414	21	SURE_INCORRECT	46	0	182.565833107956
188.517843608888	2	38	CONTROL	1.31793462011228	28	n/a	1000	0	188.517843608888
193.508157037422	2	39	CONTROL	0.849623897578113	28	n/a	1000	0	193.508157037422
198.017690550422	3	40	INCORRECTLY	2.11402556257826	10	MAYBE_INCORRECT	62	0	198.017690550422
203.024589045888	2	41	CONTROL	0.922082208112442	5	n/a	1000	0	203.024589045888
207.517564611888	2	42	CONTROL	1.09602547611212	21	n/a	1000	0	207.517564611888
211.015753659422	2	43	CONTROL	0.803344708578607	28	n/a	1000	0	211.015753659422
218.509634723353	3	44	INCORRECTLY	2.04207785664676	21	SURE_INCORRECT	49	0	218.509634723353
224.013887073887	3	45	CORRECTLY	1.53007842711258	5	SURE_CORRECT	27	47	224.013887073887
229.518147530956	3	46	CORRECTLY	1.04984917204411	5	SURE_CORRECT	30	53	229.518147530956
235.022497040888	3	47	INCORRECTLY	1.15644400711244	21	SURE_INCORRECT	75	0	235.022497040888
244.522390616422	3	48	CORRECTLY	0.9317664675782	5	SURE_CORRECT	35	58	244.522390616422
252.016185855422	3	49	CORRECTLY	2.58085271457867	28	MAYBE_CORRECT	32	55	252.016185855422
256.078034774422	2	50	CONTROL	1.10825620757851	21	n/a	1000	0	256.078034774422
259.062278196422	3	51	INCORRECTLY	1.92534816957823	21	SURE_INCORRECT	70	0	259.062278196422
267.020337949956	2	52	CONTROL	0.851895881044129	21	n/a	1000	0	267.020337949956
272.524568334956	3	53	INCORRECTLY	1.16594035304433	21	SURE_INCORRECT	79	0	272.524568334956
277.514974565888	3	54	INCORRECTLY	2.07830425811244	21	SURE_INCORRECT	65	0	277.514974565888
282.024534650353	2	55	CONTROL	0.978042947646827	5	n/a	1000	0	282.024534650353
285.075064637888	3	56	INCORRECTLY	1.47132623311199	21	SURE_INCORRECT	53	0	285.075064637888
292.021728552422	3	57	INCORRECTLY	2.10295502557847	21	SURE_INCORRECT	76	0	292.021728552422
296.067106575546	2	58	CONTROL	0.768449646453973	5	n/a	1000	0	296.067106575546
300.012949653819	3	59	INCORRECTLY	1.22336382818094	21	SURE_INCORRECT	41	0	300.012949653819
305.517273662887	2	60	CONTROL	0.828241209112548	10	n/a	1000	0	305.517273662887
310.010197655819	3	61	INCORRECTLY	2.62794619518081	10	MAYBE_INCORRECT	63	0	310.010197655819
318.017913306422	3	62	CORRECTLY	2.85177277057846	10	MAYBE_INCORRECT	38	61	318.017913306422
325.014359547956	3	63	CORRECTLY	1.29636572104437	5	SURE_CORRECT	24	41	325.014359547956
330.021229923956	3	64	CORRECTLY	1.32969796904399	5	SURE_CORRECT	21	37	330.021229923956
335.525517621956	3	65	INCORRECTLY	2.12725305804452	21	SURE_INCORRECT	67	0	335.525517621956
341.510701963956	3	66	CORRECTLY	1.15608672604412	5	SURE_CORRECT	34	57	341.510701963956
346.517580390888	3	67	INCORRECTLY	1.04854283611212	21	SURE_INCORRECT	60	0	346.517580390888
351.010651972739	2	68	CONTROL	1.50323367126111	21	n/a	1000	0	351.010651972739
355.022657658956	3	69	CORRECTLY	1.21438086204444	5	SURE_CORRECT	22	38	355.022657658956
362.516565275354	3	70	CORRECTLY	1.49399468464662	5	SURE_CORRECT	25	44	362.516565275354
367.026075787353	3	71	INCORRECTLY	2.00799105564647	21	SURE_INCORRECT	71	0	367.026075787353
371.071393451422	3	72	INCORRECTLY	2.8151911125783	10	MAYBE_INCORRECT	57	0	371.071393451422
375.514591644956	3	73	CORRECTLY	1.64648539404425	5	SURE_CORRECT	19	35	375.514591644956
381.018928273422	2	74	CONTROL	1.05151593557821	28	n/a	1000	0	381.018928273422
386.009263571422	3	75	INCORRECTLY	1.81053451157823	21	SURE_INCORRECT	74	0	386.009263571422
391.513514867422	2	76	CONTROL	0.874413995578379	10	n/a	1000	0	391.513514867422
395.509146442422	3	77	CORRECTLY	1.19158156657841	5	SURE_CORRECT	17	32	395.509146442422
401.013429909614	2	78	CONTROL	0.850161681385543	5	n/a	1000	0	401.013429909614
405.025613844888	3	79	INCORRECTLY	1.56509793511259	21	SURE_INCORRECT	77	0	405.025613844888
409.518512157887	2	80	CONTROL	1.15126740011237	10	n/a	1000	0	409.518512157887
415.520216545888	3	81	INCORRECTLY	1.45894683511233	21	SURE_INCORRECT	44	0	415.520216545888
421.521901580888	3	82	CORRECTLY	1.14195171711253	5	SURE_CORRECT	40	64	421.521901580888
426.014847256614	3	83	CORRECTLY	1.18854824138589	5	SURE_CORRECT	28	48	426.014847256614
430.076738031956	3	84	INCORRECTLY	1.3311784220441	21	SURE_INCORRECT	50	0	430.076738031956
437.023431090888	3	85	INCORRECTLY	3.25949090411223	10	MAYBE_INCORRECT	72	0	437.023431090888
443.522501225422	3	86	INCORRECTLY	1.33987588857826	21	SURE_INCORRECT	69	0	443.522501225422
447.567817651353	3	87	CORRECTLY	1.82138020464663	5	SURE_CORRECT	18	34	447.567817651353
452.508426755888	2	88	CONTROL	1.01250500111246	10	n/a	1000	0	452.508426755888
455.559083547012	2	89	CONTROL	0.652553459988212	28	n/a	1000	0	455.559083547012
462.024886599422	3	90	INCORRECTLY	1.61132719557827	21	SURE_INCORRECT	61	0	462.024886599422
466.070151720422	2	91	CONTROL	1.35506938757862	21	n/a	1000	0	466.070151720422
470.513369730422	3	92	INCORRECTLY	2.46442619857817	10	MAYBE_INCORRECT	73	0	470.513369730422
474.558852122478	3	93	CORRECTLY	1.15238225652183	5	SURE_CORRECT	29	52	474.558852122478
479.515947979285	3	94	CORRECTLY	2.63053096471504	5	SURE_CORRECT	20	36	479.515947979285
484.506328619274	2	95	CONTROL	1.15305597372662	10	n/a	1000	0	484.506328619274
489.015829049888	3	96	CORRECTLY	2.21026588011227	28	MAYBE_CORRECT	31	54	489.015829049888
493.061233737478	3	97	CORRECTLY	1.58506458152215	5	SURE_CORRECT	23	40	493.061233737478
498.018352988888	3	98	CORRECTLY	2.18486052811249	10	MAYBE_INCORRECT	37	60	498.018352988888
502.511247374422	3	99	CORRECTLY	1.97485450557861	5	SURE_CORRECT	36	59	502.511247374422
506.573187239422	2	100	CONTROL	1.43395397057839	21	n/a	1000	0	506.573187239422
510.021636773888	3	101	INCORRECTLY	1.69220041411245	21	SURE_INCORRECT	54	0	510.021636773888
514.066986393887	3	102	CORRECTLY	0.991541807112753	5	SURE_CORRECT	39	63	514.066986393887
518.079111023887	3	103	CORRECTLY	2.93120322311279	5	SURE_CORRECT	33	56	518.079111023887
522.074718670888	3	104	CORRECTLY	1.28429121011231	5	SURE_CORRECT	26	45	522.074718670888
