onset	duration	trial_number	trial_type	trial_type_coded	reaction_time	expected_response_coded	response	response_coded	accuracy	accuracy_scrambled	accuracy_task	rec_codes_during_enc	onset_probe	onset_noTriggerAdjust	onset_probe_noTriggerAdjust
0.0133489426234519	2	1	CONTROL	1	1.35664995008347	1	LEFT	5	1	1	0	0	0.0465050319166949	0.0133489426234519	0.0465050319166949
4.52296536591666	2	2	CONTROL	1	1.00882122137682	2	RIGHT	28	1	1	0	0	4.53951260262329	4.52296536591666	4.53951260262329
11.5192995342095	4	3	TASK	2	n/a	1	n/a	n/a	0	0	0	16	12.5141315496235	11.5192995342095	12.5141315496235
19.5271317146235	2	4	CONTROL	1	0.998301151083524	1	LEFT	5	1	1	0	0	19.5436359129167	19.5271317146235	19.5436359129167
22.0637327079166	4	5	TASK	2	n/a	2	n/a	n/a	0	0	0	28	23.0087287479168	22.0637327079166	23.0087287479168
38.5268137899166	4	6	TASK	2	0.870792446083215	1	LEFT	5	1	0	1	1	39.5215893749169	38.5268137899166	39.5215893749169
49.5188785096234	2	7	CONTROL	1	0.81955499665446	2	RIGHT	28	1	1	0	0	49.5355534063456	49.5188785096234	49.5355534063456
56.5153530733305	2	8	CONTROL	1	1.30693887208372	2	RIGHT	28	1	1	0	0	56.5318814329166	56.5153530733305	56.5318814329166
66.0151913943982	4	9	TASK	2	1.41047292665462	2	RIGHT	28	1	0	1	33	67.0100074613456	66.0151913943982	67.0100074613456
70.5247530463303	2	10	CONTROL	1	1.04765482401535	2	RIGHT	28	1	1	0	0	70.5413924909849	70.5247530463303	70.5413924909849
76.0124659683302	4	11	TASK	2	1.23561573842881	2	RIGHT	28	1	0	1	17	77.0072167995713	76.0124659683302	77.0072167995713
81.5167512666235	4	12	TASK	2	1.30137123079066	2	RIGHT	28	1	0	1	11	82.5114699202095	81.5167512666235	82.5114699202095
92.5253607389168	4	13	TASK	2	1.32453681637662	1	LEFT	5	1	0	1	8	93.5201092706234	92.5253607389168	93.5201092706234
98.0130637039169	2	14	CONTROL	1	0.850705382895285	1	LEFT	5	1	1	0	0	98.0297100541047	98.0130637039169	98.0297100541047
104.512130585346	4	15	TASK	2	0.875289714654173	1	LEFT	5	1	0	1	5	105.506939137346	104.512130585346	105.506939137346
109.02158720221	2	16	CONTROL	1	1.18186032708309	1	LEFT	5	1	1	0	0	109.038242855917	109.02158720221	109.038242855917
112.022511760623	2	17	CONTROL	1	0.911851149083304	2	RIGHT	28	1	1	0	0	112.039083835917	112.022511760623	112.039083835917
118.52147932321	4	18	TASK	2	1.57006763237678	2	RIGHT	28	1	0	1	25	119.516281568624	118.52147932321	119.516281568624
125.020499941917	2	19	CONTROL	1	0.771255814377128	1	LEFT	5	1	1	0	0	125.037143027623	125.020499941917	125.037143027623
129.016149831623	4	20	TASK	2	1.79899923479024	1	LEFT	5	1	0	1	21	130.01084045321	129.016149831623	130.01084045321
135.017851213623	4	21	TASK	2	0.909621567083377	2	RIGHT	28	1	0	1	35	136.012516208917	135.017851213623	136.012516208917
151.016749154623	4	22	TASK	2	1.01118325437665	1	LEFT	5	1	0	1	4	152.011486200623	151.016749154623	152.011486200623
155.526322742346	4	23	TASK	2	1.75883441466976	2	RIGHT	28	1	0	1	34	156.52108105033	155.526322742346	156.52108105033
161.014016515623	2	24	CONTROL	1	0.830987764308702	2	RIGHT	28	1	1	0	0	161.030617056691	161.014016515623	161.030617056691
165.026120570917	2	25	CONTROL	1	1.28949789279068	1	LEFT	5	1	1	0	0	165.04269854621	165.026120570917	165.04269854621
174.509449362623	2	26	CONTROL	1	0.64850382508348	2	RIGHT	28	1	1	0	0	174.526081936917	174.509449362623	174.526081936917
179.51636712321	2	27	CONTROL	1	0.847180276083691	2	RIGHT	28	1	1	0	0	179.532997466917	179.51636712321	179.532997466917
182.05294859921	4	28	TASK	2	1.53971020337667	2	RIGHT	28	1	0	1	15	183.014620806623	182.05294859921	183.014620806623
189.01622713221	2	29	CONTROL	1	0.816086070083202	2	RIGHT	28	1	1	0	0	189.032846290917	189.01622713221	189.032846290917
193.028476249917	4	30	TASK	2	1.77550050994751	2	RIGHT	28	1	0	1	36	194.006719600053	193.028476249917	194.006719600053
202.014342056917	4	31	TASK	2	1.3032666027907	2	RIGHT	28	1	0	1	14	203.00905534221	202.014342056917	203.00905534221
209.508151602623	4	32	TASK	2	0.904734100377027	1	LEFT	5	1	0	1	77	210.519473272623	209.508151602623	210.519473272623
216.007239263623	2	33	CONTROL	1	1.01544715379077	2	RIGHT	28	1	1	0	0	216.02372913521	216.007239263623	216.02372913521
220.516724444623	4	34	TASK	2	1.37489745208359	1	LEFT	5	1	0	1	87	221.511540219917	220.516724444623	221.511540219917
226.021080449623	4	35	TASK	2	1.04373511708354	1	LEFT	5	1	0	1	73	227.015824518917	226.021080449623	227.015824518917
240.01382044021	4	36	TASK	2	0.84185800594696	1	LEFT	5	1	0	1	94	241.008727315053	240.01382044021	241.008727315053
254.006694998917	4	37	TASK	2	0.899396462083587	1	LEFT	5	1	0	1	64	255.018079017917	254.006694998917	255.018079017917
261.517141259623	4	38	TASK	2	1.12384219408341	2	RIGHT	28	1	0	1	69	262.511959896917	261.517141259623	262.511959896917
280.019492363623	2	39	CONTROL	1	0.908144692654332	1	LEFT	5	1	1	0	0	280.036181878346	280.019492363623	280.036181878346
283.020341475623	4	40	TASK	2	1.27234240708322	2	RIGHT	28	1	0	1	97	284.015104178917	283.020341475623	284.015104178917
292.006203676623	4	41	TASK	2	1.150763094377	1	LEFT	5	1	0	1	63	293.017573069623	292.006203676623	293.017573069623
297.527117432917	2	42	CONTROL	1	0.801106273083406	1	LEFT	5	1	1	0	0	297.543710544917	297.527117432917	297.543710544917
305.518295122917	2	43	CONTROL	1	1.1019566163086	1	LEFT	5	1	1	0	0	305.534969308691	305.518295122917	305.534969308691
316.510304124917	4	44	TASK	2	1.19447994779057	1	LEFT	5	1	0	1	70	317.521596320209	316.510304124917	317.521596320209
324.020706292917	4	45	TASK	2	1.42748871308368	1	LEFT	5	1	0	1	104	325.015450696917	324.020706292917	325.015450696917
331.017118702624	2	46	CONTROL	1	0.777811805083275	1	LEFT	5	1	1	0	0	331.033721291917	331.017118702624	331.033721291917
336.521431720917	4	47	TASK	2	0.826491030376928	2	RIGHT	28	1	0	1	45	337.516209508623	336.521431720917	337.516209508623
347.016068550917	4	48	TASK	2	1.65806643994756	2	RIGHT	28	1	0	1	83	348.010852761053	347.016068550917	348.010852761053
358.024627716623	2	49	CONTROL	1	0.686773433376857	1	LEFT	5	1	1	0	0	358.041240306623	358.024627716623	358.041240306623
363.014943598917	2	50	CONTROL	1	0.806803672083333	2	RIGHT	28	1	1	0	0	363.031510409917	363.014943598917	363.031510409917
370.525370540623	2	51	CONTROL	1	0.778863880790595	2	RIGHT	28	1	1	0	0	370.54186773421	370.525370540623	370.54186773421
376.510467998917	4	52	TASK	2	0.583344634481819	2	RIGHT	28	1	0	1	93	377.505209198519	376.510467998917	377.505209198519
383.506833701917	4	53	TASK	2	1.61037037508322	1	LEFT	5	1	0	1	46	384.518150492917	383.506833701917	384.518150492917
390.51987297621	4	54	TASK	2	0.885480155376626	2	RIGHT	28	1	0	1	96	391.514653278623	390.51987297621	391.514653278623
405.026660087917	4	55	TASK	2	0.968912486083354	2	RIGHT	28	1	0	1	49	406.021412593917	405.026660087917	406.021412593917
412.006469013917	4	56	TASK	2	2.02368418237666	2	RIGHT	28	1	0	1	103	413.017832700623	412.006469013917	413.017832700623
418.522102567917	4	57	TASK	2	1.14171988079033	2	RIGHT	28	1	0	1	66	419.51682982221	418.522102567917	419.51682982221
429.514152491917	4	58	TASK	2	0.669114061654454	2	RIGHT	28	1	0	1	48	430.508995183346	429.514152491917	430.508995183346
443.52353143121	4	59	TASK	2	1.11374571094711	2	RIGHT	28	1	0	1	99	444.518389835053	443.52353143121	444.518389835053
448.033115084623	4	60	TASK	2	1.48014611508324	1	LEFT	5	1	0	1	98	449.011226424917	448.033115084623	449.011226424917
453.02350327933	4	61	TASK	2	1.12288100808337	2	RIGHT	28	1	0	1	62	454.018167393917	453.02350327933	454.018167393917
459.505879687623	2	62	CONTROL	1	0.970706277790214	1	LEFT	5	1	1	0	0	459.52243973821	459.505879687623	459.52243973821
465.010294265053	4	63	TASK	2	1.15498869537669	1	LEFT	5	1	0	1	102	466.021583535623	465.010294265053	466.021583535623
473.515321259623	4	64	TASK	2	0.994405785376784	2	RIGHT	28	1	0	1	82	474.510139298623	473.515321259623	474.510139298623
