onset	duration	trial_number	trial_type	reaction_time	response_coded	response_str	pairno_rec	enc_codes_during_rec	onset_noTriggerAdjust
0.295745532000183	3	1	CORRECTLY	2.3407642950001	5	SURE_CORRECT	3	6	0.295745532000183
4.51522037799987	3	2	INCORRECTLY	2.47681168000008	28	MAYBE_CORRECT	55	0	4.51522037799987
13.0203046000001	2	3	CONTROL	1.88365287799979	5	n/a	1000	0	13.0203046000001
16.0649107899999	3	4	CORRECTLY	1.55490719199997	10	MAYBE_INCORRECT	12	0	16.0649107899999
21.0124713350001	3	5	CORRECTLY	2.40189663000001	10	MAYBE_INCORRECT	8	15	21.0124713350001
25.0664521160002	2	6	CONTROL	2.32073305099993	28	n/a	1000	0	25.0664521160002
29.0211801949999	3	7	INCORRECTLY	2.88263546500002	21	SURE_INCORRECT	59	0	29.0211801949999
36.0204505860002	3	8	CORRECTLY	1.76133989299979	21	SURE_INCORRECT	7	13	36.0204505860002
40.5211947560001	3	9	INCORRECTLY	2.55814725499977	28	MAYBE_CORRECT	68	0	40.5211947560001
47.0241768139999	3	10	INCORRECTLY	1.57957278899994	28	MAYBE_CORRECT	64	0	47.0241768139999
51.0616130910003	3	11	CORRECTLY	2.07385666799973	5	SURE_CORRECT	6	12	51.0616130910003
56.025706855	2	12	CONTROL	1.47045467299995	5	n/a	1000	0	56.025706855
61.5192313000002	3	13	INCORRECTLY	2.15390452599968	5	SURE_CORRECT	78	0	61.5192313000002
65.5732193560002	3	14	CORRECTLY	1.75339786299992	28	MAYBE_CORRECT	16	31	65.5732193560002
69.577547372	3	15	CORRECTLY	2.16543480400014	10	MAYBE_INCORRECT	14	0	69.577547372
75.0214723130002	3	16	CORRECTLY	2.52580449499965	28	MAYBE_CORRECT	1	3	75.0214723130002
79.058924038	3	17	CORRECTLY	1.11812001299995	28	MAYBE_CORRECT	5	11	79.058924038
83.510006382	3	18	INCORRECTLY	2.34979063899982	21	SURE_INCORRECT	51	0	83.510006382
90.0130095290001	3	19	INCORRECTLY	2.55939859199998	10	MAYBE_INCORRECT	47	0	90.0130095290001
94.0669289590001	3	20	INCORRECTLY	1.47511786299992	5	SURE_CORRECT	66	0	94.0669289590001
99.0144653850002	3	21	CORRECTLY	1.90439213499985	5	SURE_CORRECT	10	20	99.0144653850002
103.068475492	3	22	INCORRECTLY	2.2083579590003	28	MAYBE_CORRECT	48	0	103.068475492
107.072869634	3	23	INCORRECTLY	1.56587096799967	10	MAYBE_INCORRECT	52	0	107.072869634
115.015288358	3	24	INCORRECTLY	1.31615992000025	28	MAYBE_CORRECT	45	0	115.015288358
119.516078287	3	25	CORRECTLY	1.47227052299968	5	SURE_CORRECT	9	18	119.516078287
125.522586733	3	26	INCORRECTLY	0.483201049999934	10	MAYBE_INCORRECT	42	0	125.522586733
131.016169657	3	27	INCORRECTLY	1.75929537800039	28	MAYBE_CORRECT	80	0	131.016169657
137.022624221	3	28	CORRECTLY	1.7823580700001	5	SURE_CORRECT	2	5	137.022624221
142.019797532	2	29	CONTROL	1.78682313099989	10	n/a	1000	0	142.019797532
145.080993648	3	30	INCORRECTLY	1.77053466899997	28	MAYBE_CORRECT	56	0	145.080993648
150.508335148	3	31	INCORRECTLY	1.51007709899977	5	SURE_CORRECT	43	0	150.508335148
155.009168335	3	32	INCORRECTLY	1.81918150000001	21	SURE_INCORRECT	58	0	155.009168335
159.509889121	3	33	CORRECTLY	2.55137455600016	10	MAYBE_INCORRECT	4	9	159.509889121
167.022225355	3	34	CORRECTLY	1.20846711200011	28	MAYBE_CORRECT	13	0	167.022225355
173.508577249	3	35	CORRECTLY	0.681087577999733	28	MAYBE_CORRECT	11	21	173.508577249
178.505737961	3	36	CORRECTLY	0.706555698999637	10	MAYBE_INCORRECT	15	30	178.505737961
182.576225464	3	37	INCORRECTLY	1.24033314300004	10	MAYBE_INCORRECT	46	0	182.576225464
188.516577221	2	38	CONTROL	1.63961967299974	28	n/a	1000	0	188.516577221
193.513735218	2	39	CONTROL	0.97839335100025	28	n/a	1000	0	193.513735218
198.014509978	3	40	INCORRECTLY	1.79306808699994	28	MAYBE_CORRECT	62	0	198.014509978
203.011622927	2	41	CONTROL	1.08436425699983	5	n/a	1000	0	203.011622927
207.512382713	2	42	CONTROL	2.13191914499976	21	n/a	1000	0	207.512382713
211.020283799	2	43	CONTROL	1.52177827700007	28	n/a	1000	0	211.020283799
218.516094813	3	44	INCORRECTLY	2.24139785899979	21	SURE_INCORRECT	49	0	218.516094813
224.026195303	3	45	CORRECTLY	1.94842646999996	10	MAYBE_INCORRECT	27	47	224.026195303
229.519756866	3	46	CORRECTLY	0.895685730999958	21	SURE_INCORRECT	30	53	229.519756866
235.013345045	3	47	INCORRECTLY	2.17439189999959	28	MAYBE_CORRECT	75	0	235.013345045
244.511249608	3	48	CORRECTLY	1.83701938000013	5	SURE_CORRECT	35	58	244.511249608
252.023563593	3	49	CORRECTLY	2.60880885300003	28	MAYBE_CORRECT	32	55	252.023563593
256.060949242	2	50	CONTROL	2.66685647400027	21	n/a	1000	0	256.060949242
259.072519087	3	51	INCORRECTLY	1.11021086999972	28	MAYBE_CORRECT	70	0	259.072519087
267.014940482	2	52	CONTROL	1.17405548000033	21	n/a	1000	0	267.014940482
272.508544613	3	53	INCORRECTLY	1.64753397799996	5	SURE_CORRECT	79	0	272.508544613
277.505741887	3	54	INCORRECTLY	1.34287057499978	10	MAYBE_INCORRECT	65	0	277.505741887
282.022968735	2	55	CONTROL	0.878200653000022	5	n/a	1000	0	282.022968735
285.084175825	3	56	INCORRECTLY	0.797586794000381	10	MAYBE_INCORRECT	53	0	285.084175825
292.017321349	3	57	INCORRECTLY	1.94240338700001	5	SURE_CORRECT	76	0	292.017321349
296.087836814	2	58	CONTROL	1.0173080239997	5	n/a	1000	0	296.087836814
300.009448297	3	59	INCORRECTLY	1.34855440700039	28	MAYBE_CORRECT	41	0	300.009448297
305.519562457	2	60	CONTROL	1.94975388500006	10	n/a	1000	0	305.519562457
310.020316318	3	61	INCORRECTLY	2.43261074700013	28	MAYBE_CORRECT	63	0	310.020316318
318.012463346	3	62	CORRECTLY	1.31693005499983	28	MAYBE_CORRECT	38	61	318.012463346
325.011783627	3	63	CORRECTLY	0.870094447000156	28	MAYBE_CORRECT	24	41	325.011783627
330.009012208	3	64	CORRECTLY	1.45238034400018	10	MAYBE_INCORRECT	21	37	330.009012208
335.519086916	3	65	INCORRECTLY	0.86427656900014	10	MAYBE_INCORRECT	67	0	335.519086916
341.509104516	3	66	CORRECTLY	0.978940465000051	28	MAYBE_CORRECT	34	57	341.509104516
346.52277911	3	67	INCORRECTLY	1.11180852300004	21	SURE_INCORRECT	60	0	346.52277911
351.006929262	2	68	CONTROL	1.51358587999994	21	n/a	1000	0	351.006929262
355.011315079	3	69	CORRECTLY	2.50741928399975	28	MAYBE_CORRECT	22	38	355.011315079
362.507053913	3	70	CORRECTLY	0.724270789999991	28	MAYBE_CORRECT	25	44	362.507053913
367.007792889	3	71	INCORRECTLY	2.34076915300011	5	SURE_CORRECT	71	0	367.007792889
371.061788102	3	72	INCORRECTLY	1.17999301899999	28	MAYBE_CORRECT	57	0	371.061788102
375.512870878	3	73	CORRECTLY	0.65837741300038	28	MAYBE_CORRECT	19	35	375.512870878
381.023038949	2	74	CONTROL	1.81957660499984	21	n/a	1000	0	381.023038949
386.020167162	3	75	INCORRECTLY	2.8816454519997	10	MAYBE_INCORRECT	74	0	386.020167162
391.513728338	2	76	CONTROL	1.50384451800028	10	n/a	1000	0	391.513728338
395.518125313	3	77	CORRECTLY	1.60780835900005	5	SURE_CORRECT	17	32	395.518125313
401.011617866	2	78	CONTROL	1.05291257899989	5	n/a	1000	0	401.011617866
405.016004785	3	79	INCORRECTLY	1.16659386500032	10	MAYBE_INCORRECT	77	0	405.016004785
409.516766489	2	80	CONTROL	1.70680700200001	10	n/a	1000	0	409.516766489
415.523242372	3	81	INCORRECTLY	2.40369793100035	5	SURE_CORRECT	44	0	415.523242372
421.51322128	3	82	CORRECTLY	1.44860766500005	28	MAYBE_CORRECT	40	64	421.51322128
426.013969508	3	83	CORRECTLY	1.28743759500003	28	MAYBE_CORRECT	28	48	426.013969508
430.067959662	3	84	INCORRECTLY	1.1260138839998	10	MAYBE_INCORRECT	50	0	430.067959662
437.017696927	3	85	INCORRECTLY	1.02256522500011	10	MAYBE_INCORRECT	72	0	437.017696927
443.520589949	3	86	INCORRECTLY	1.69814358899976	21	SURE_INCORRECT	69	0	443.520589949
447.574657478	3	87	CORRECTLY	1.62740935700003	5	SURE_CORRECT	18	34	447.574657478
452.522098736	2	88	CONTROL	1.36224938300029	10	n/a	1000	0	452.522098736
455.566783016	2	89	CONTROL	1.589584328	28	n/a	1000	0	455.566783016
462.020065274	3	90	INCORRECTLY	2.0463672169999	21	SURE_INCORRECT	61	0	462.020065274
466.073975835	2	91	CONTROL	2.8842351190001	5	n/a	1000	0	466.073975835
470.508585811	3	92	INCORRECTLY	0.798919362000106	5	SURE_CORRECT	73	0	470.508585811
474.579076279	3	93	CORRECTLY	2.07708398899968	28	MAYBE_CORRECT	29	52	474.579076279
479.510123851	3	94	CORRECTLY	0.229268023999794	10	MAYBE_INCORRECT	20	36	479.510123851
484.50722438	2	95	CONTROL	1.46122853099996	10	n/a	1000	0	484.50722438
489.007968376	3	96	CORRECTLY	1.30150776600021	28	MAYBE_CORRECT	31	54	489.007968376
493.078522262	3	97	CORRECTLY	1.32941127899994	5	SURE_CORRECT	23	40	493.078522262
498.009521016	3	98	CORRECTLY	1.01515060699967	5	SURE_CORRECT	37	60	498.009521016
502.510264662	3	99	CORRECTLY	0.876349345999643	10	MAYBE_INCORRECT	36	59	502.510264662
506.580772093	2	100	CONTROL	1.94021447599971	21	n/a	1000	0	506.580772093
510.005987995	3	101	INCORRECTLY	2.07914572100026	28	MAYBE_CORRECT	54	0	510.005987995
514.059959185	3	102	CORRECTLY	1.1445630799999	10	MAYBE_INCORRECT	39	63	514.059959185
518.064337919	3	103	CORRECTLY	1.55614981799999	10	MAYBE_INCORRECT	33	56	518.064337919
522.068699302	3	104	CORRECTLY	1.22253858100021	5	SURE_CORRECT	26	45	522.068699302
